Oscilloscope Trace Export		
Festo Didactic LVDAC-EMS 3.21		
		
		
		Ch1		Ch2		Ch3		Ch4		Ch5		Ch6		Ch7		Ch8		
Time 		E1		I1		AI8		AI7		Pm		P1		Off		Off		
(ms)		(V)		(A)		(r/min)		(NÂ·m)		(W)		(W)		()		()		
0.000		6.1		-0.634		-1.2		0.0045		149.08		-3.9						
0.098		24.3		-0.632		-2.5		0.0030		148.72		-15.4						
0.195		45.2		-0.634		-3.8		0.0061		149.04		-28.7						
0.293		67.4		-0.613		-2.5		0.0030		148.72		-41.3						
0.391		88.3		-0.594		-2.5		0.0030		148.72		-52.4						
0.488		100.9		-0.584		-3.8		0.0030		148.58		-58.9						
0.586		120.4		-0.584		-2.5		-0.0001		148.26		-70.3						
0.684		139.6		-0.559		-3.8		0.0045		148.81		-78.0						
0.781		154.8		-0.565		-2.5		0.0061		149.17		-87.4						
0.879		170.4		-0.546		-1.2		0.0030		148.85		-93.0						
0.977		188.7		-0.538		-3.8		0.0015		148.36		-101.4						
1.074		201.7		-0.531		-6.3		0.0030		148.32		-107.2						
1.172		219.1		-0.519		-1.2		0.0091		149.76		-113.6						
1.270		229.6		-0.506		-1.2		0.0030		148.85		-116.2						
1.367		248.7		-0.504		-2.5		0.0045		148.95		-125.3						
1.465		260.9		-0.483		-1.2		0.0030		148.85		-126.0						
1.563		272.6		-0.481		-3.8		0.0030		148.58		-131.1						
1.660		286.1		-0.466		-2.5		0.0045		148.95		-133.4						
1.758		298.3		-0.456		-1.2		0.0061		149.31		-135.9						
1.855		312.2		-0.428		-1.2		0.0015		148.63		-133.7						
1.953		323.9		-0.433		-2.5		0.0030		148.72		-140.1						
2.051		336.1		-0.424		-3.8		0.0015		148.36		-142.6						
2.148		342.6		-0.405		-2.5		0.0030		148.72		-138.8						
2.246		358.3		-0.391		-2.5		0.0015		148.49		-139.9						
2.344		364.8		-0.374		-2.5		0.0030		148.72		-136.3						
2.441		379.1		-0.353		-2.5		0.0030		148.72		-133.7						
2.539		390.0		-0.349		-2.5		0.0030		148.72		-135.9						
2.637		401.3		-0.323		-3.8		0.0015		148.36		-129.8						
2.734		407.4		-0.309		-3.8		0.0015		148.36		-125.7						
2.832		418.7		-0.288		-3.8		0.0045		148.81		-120.4						
2.930		428.3		-0.275		-1.2		0.0030		148.85		-117.8						
3.027		440.0		-0.269		-3.8		-0.0016		147.90		-118.3						
3.125		451.3		-0.237		-5.1		0.0015		148.22		-107.1						
3.223		463.0		-0.225		-3.8		0.0076		149.27		-104.0						
3.320		472.6		-0.210		-1.2		-0.0001		148.40		-99.2						
3.418		478.3		-0.195		-3.8		0.0030		148.58		-93.4						
3.516		488.7		-0.168		-2.5		0.0045		148.95		-82.1						
3.613		498.7		-0.160		-2.5		-0.0001		148.26		-79.6						
3.711		507.8		-0.124		-3.8		0.0030		148.58		-62.9						
3.809		517.4		-0.115		-1.2		0.0061		149.31		-59.8						
3.906		526.1		-0.082		-2.5		0.0015		148.49		-43.1						
4.004		536.5		-0.069		-2.5		-0.0047		147.58		-37.2						
4.102		543.5		-0.034		-2.5		0.0030		148.72		-18.3						
4.199		548.3		-0.031		-1.2		0.0030		148.85		-17.3						
4.297		550.4		0.008		-2.5		0.0061		149.17		4.6						
4.395		552.2		0.038		-2.5		0.0061		149.17		20.9						
4.492		554.3		0.048		-2.5		0.0076		149.40		26.8						
4.590		554.8		0.071		5.1		0.0076		150.21		39.6						
4.688		559.6		0.090		3.9		0.0061		149.85		50.5						
4.785		556.5		0.124		2.6		0.0061		149.71		68.9						
4.883		551.7		0.134		3.9		0.0076		150.07		74.1						
4.980		557.4		0.157		7.7		0.0061		150.25		87.8						
5.078		557.0		0.178		3.9		0.0015		149.16		99.4						
5.176		554.3		0.195		1.3		0.0076		149.80		108.3						
5.273		548.7		0.225		6.4		0.0091		150.57		123.3						
5.371		548.7		0.250		9.0		0.0045		150.15		137.1						
5.469		544.3		0.252		5.1		0.0061		149.98		137.2						
5.566		542.6		0.275		5.1		0.0061		149.98		149.3						
5.664		539.6		0.286		5.1		0.0045		149.75		154.1						
5.762		532.6		0.307		3.9		0.0076		150.07		163.3						
5.859		528.7		0.321		6.4		0.0107		150.80		169.8						
5.957		518.7		0.342		7.7		0.0061		150.25		177.5						
6.055		510.4		0.349		6.4		-0.0077		148.05		177.9						
6.152		501.7		0.374		5.1		0.0076		150.21		187.5						
6.250		493.5		0.384		5.1		0.0061		149.98		189.6						
6.348		484.8		0.397		5.1		0.0061		149.98		192.4						
6.445		475.2		0.412		3.9		0.0061		149.85		195.6						
6.543		468.7		0.433		3.9		0.0076		150.07		202.7						
6.641		457.8		0.426		6.4		0.0091		150.57		195.1						
6.738		450.9		0.458		3.9		0.0061		149.85		206.4						
6.836		440.4		0.460		3.9		0.0061		149.85		202.5						
6.934		430.0		0.475		5.1		0.0091		150.44		204.1						
7.031		420.9		0.487		6.4		0.0076		150.34		205.0						
7.129		412.2		0.489		5.1		0.0030		149.52		201.7						
7.227		400.4		0.506		2.6		0.0076		149.94		202.6						
7.324		393.9		0.514		5.1		0.0076		150.21		202.6						
7.422		381.3		0.535		10.3		0.0076		150.75		204.2						
7.520		373.5		0.542		5.1		0.0076		150.21		202.3						
7.617		363.9		0.563		6.4		0.0076		150.34		204.8						
7.715		350.4		0.563		5.1		0.0045		149.75		197.2						
7.813		343.0		0.584		5.1		0.0076		150.21		200.2						
7.910		327.0		0.582		7.7		0.0107		150.94		190.2						
8.008		319.1		0.611		6.4		0.0061		150.11		195.0						
8.105		308.7		0.609		6.4		0.0061		150.11		188.0						
8.203		292.2		0.613		6.4		0.0076		150.34		179.1						
8.301		277.0		0.661		6.4		0.0061		150.11		183.2						
8.398		261.3		0.643		5.1		0.0061		149.98		167.9						
8.496		246.1		0.649		3.9		0.0061		149.85		159.7						
8.594		232.2		0.651		5.1		0.0076		150.21		151.1						
8.691		213.0		0.666		5.1		0.0091		150.44		141.8						
8.789		197.4		0.672		3.9		0.0061		149.85		132.6						
8.887		180.9		0.657		3.9		0.0045		149.62		118.9						
8.984		165.7		0.668		5.1		0.0076		150.21		110.6						
9.082		151.7		0.657		6.4		0.0076		150.34		99.7						
9.180		134.8		0.668		5.1		0.0045		149.75		90.0						
9.277		119.1		0.668		2.6		0.0061		149.71		79.5						
9.375		104.8		0.666		5.1		0.0076		150.21		69.7						
9.473		88.3		0.664		10.3		0.0061		150.52		58.6						
9.570		69.6		0.657		5.1		0.0091		150.44		45.7						
9.668		49.6		0.653		5.1		0.0061		149.98		32.4						
9.766		31.7		0.659		5.1		0.0045		149.75		20.9						
9.863		15.7		0.638		5.1		0.0061		149.98		10.0						
9.961		-8.3		0.632		5.1		0.0091		150.44		-5.2						
10.059		-27.8		0.622		7.7		0.0030		149.79		-17.3						
10.156		-48.3		0.609		5.1		0.0061		149.98		-29.4						
10.254		-67.0		0.603		5.1		0.0061		149.98		-40.3						
10.352		-85.2		0.590		5.1		0.0061		149.98		-50.3						
10.449		-103.5		0.575		3.9		0.0045		149.62		-59.5						
10.547		-121.3		0.577		5.1		0.0030		149.52		-70.0						
10.645		-139.1		0.569		5.1		0.0045		149.75		-79.2						
10.742		-154.8		0.559		5.1		0.0030		149.52		-86.5						
10.840		-173.5		0.548		5.1		0.0030		149.52		-95.1						
10.938		-191.7		0.546		2.6		0.0015		149.03		-104.7						
11.035		-204.3		0.527		5.1		0.0045		149.75		-107.7						
11.133		-217.8		0.519		6.4		0.0030		149.66		-113.0						
11.230		-233.0		0.510		5.1		-0.0001		149.07		-118.9						
11.328		-247.8		0.496		1.3		0.0015		148.89		-122.8						
11.426		-260.9		0.483		3.9		0.0015		149.16		-126.0						
11.523		-273.5		0.470		11.5		0.0045		150.42		-128.6						
11.621		-289.6		0.468		5.1		0.0045		149.75		-135.6						
11.719		-302.6		0.458		3.9		0.0030		149.39		-138.5						
11.816		-312.2		0.430		3.9		0.0015		149.16		-134.4						
11.914		-325.7		0.424		2.6		0.0030		149.25		-138.1						
12.012		-337.8		0.414		6.4		0.0076		150.34		-139.7						
12.109		-346.1		0.401		7.7		0.0030		149.79		-138.8						
12.207		-359.1		0.378		3.9		0.0030		149.39		-135.7						
12.305		-369.1		0.361		5.1		0.0045		149.75		-133.3						
12.402		-380.0		0.346		5.1		0.0030		149.52		-131.7						
12.500		-389.1		0.342		5.1		0.0030		149.52		-133.2						
12.598		-400.9		0.330		3.9		0.0030		149.39		-132.2						
12.695		-410.4		0.321		5.1		0.0045		149.75		-131.9						
12.793		-417.8		0.288		5.1		0.0030		149.52		-120.2						
12.891		-433.5		0.283		5.1		0.0015		149.29		-122.9						
12.988		-441.7		0.267		3.9		0.0015		149.16		-117.8						
13.086		-453.5		0.244		3.9		0.0030		149.39		-110.5						
13.184		-464.8		0.235		6.4		0.0045		149.89		-109.3						
13.281		-473.9		0.202		5.1		0.0015		149.29		-95.5						
13.379		-481.3		0.189		2.6		0.0015		149.03		-91.0						
13.477		-488.7		0.172		5.1		0.0015		149.29		-84.1						
13.574		-502.6		0.153		11.5		0.0030		150.19		-77.0						
13.672		-510.4		0.136		5.1		0.0061		149.98		-69.7						
13.770		-516.5		0.111		5.1		0.0030		149.52		-57.5						
13.867		-529.1		0.101		5.1		0.0015		149.29		-53.3						
13.965		-541.3		0.065		3.9		0.0030		149.39		-35.2						
14.063		-544.3		0.050		5.1		0.0061		149.98		-27.4						
14.160		-550.0		0.029		7.7		0.0030		149.79		-16.2						
14.258		-558.3		0.002		3.9		0.0015		149.16		-1.2						
14.355		-557.0		-0.031		5.1		0.0015		149.29		17.5						
14.453		-555.7		-0.063		5.1		-0.0001		149.07		35.0						
14.551		-557.8		-0.071		3.9		-0.0031		148.47		39.8						
14.648		-556.1		-0.097		2.6		-0.0016		148.57		53.7						
14.746		-563.5		-0.111		5.1		0.0015		149.29		62.7						
14.844		-559.1		-0.147		3.9		-0.0001		148.93		82.2						
14.941		-559.6		-0.149		3.9		-0.0001		148.93		83.4						
15.039		-557.8		-0.178		3.9		-0.0016		148.70		99.6						
15.137		-554.8		-0.191		5.1		0.0015		149.29		106.0						
15.234		-556.1		-0.210		6.4		0.0030		149.66		116.8						
15.332		-549.6		-0.239		6.4		-0.0016		148.97		131.5						
15.430		-547.8		-0.252		1.3		-0.0016		148.44		138.0						
15.527		-543.5		-0.279		3.9		-0.0001		148.93		151.8						
15.625		-539.6		-0.292		11.5		-0.0001		149.73		157.5						
15.723		-536.1		-0.313		5.1		-0.0001		149.07		167.7						
15.820		-527.0		-0.332		5.1		0.0030		149.52		174.8						
15.918		-518.7		-0.357		3.9		-0.0016		148.70		185.2						
16.016		-514.8		-0.357		3.9		0.0015		149.16		183.8						
16.113		-505.2		-0.365		5.1		0.0030		149.52		184.6						
16.211		-493.0		-0.395		9.0		0.0015		149.70		194.6						
16.309		-484.3		-0.409		3.9		-0.0016		148.70		198.3						
16.406		-477.0		-0.405		15.4		0.0030		150.59		193.3						
16.504		-467.0		-0.424		6.4		-0.0001		149.20		198.1						
16.602		-460.0		-0.441		3.9		-0.0016		148.70		202.8						
16.699		-450.9		-0.454		5.1		0.0015		149.29		204.5						
16.797		-440.4		-0.468		5.1		0.0015		149.29		206.2						
16.895		-435.7		-0.481		6.4		0.0030		149.66		209.5						
16.992		-421.3		-0.479		5.1		-0.0001		149.07		201.7						
17.090		-409.1		-0.489		3.9		-0.0001		148.93		200.2						
17.188		-403.0		-0.493		3.9		0.0015		149.16		198.9						
17.285		-392.6		-0.517		7.7		0.0030		149.79		202.8						
17.383		-381.7		-0.517		7.7		-0.0001		149.33		197.2						
17.480		-376.5		-0.533		3.9		-0.0016		148.70		200.8						
17.578		-362.2		-0.548		3.9		-0.0001		148.93		198.5						
17.676		-351.3		-0.571		9.0		-0.0001		149.47		200.6						
17.773		-343.0		-0.575		6.4		0.0015		149.43		197.4						
17.871		-332.2		-0.594		5.1		-0.0001		149.07		197.4						
17.969		-319.1		-0.601		5.1		-0.0001		149.07		191.6						
18.066		-307.8		-0.613		3.9		0.0015		149.16		188.7						
18.164		-295.2		-0.624		5.1		0.0030		149.52		184.1						
18.262		-277.8		-0.632		7.7		0.0015		149.56		175.6						
18.359		-261.7		-0.640		3.9		-0.0047		148.25		167.6						
18.457		-244.3		-0.655		1.3		0.0015		148.89		160.1						
18.555		-231.7		-0.649		6.4		0.0015		149.43		150.4						
18.652		-216.1		-0.674		5.1		-0.0001		149.07		145.6						
18.750		-199.6		-0.661		3.9		-0.0001		148.93		132.0						
18.848		-183.9		-0.655		6.4		0.0015		149.43		120.5						
18.945		-167.4		-0.661		5.1		0.0015		149.29		110.7						
19.043		-147.8		-0.655		5.1		-0.0001		149.07		96.8						
19.141		-136.1		-0.666		5.1		0.0015		149.29		90.6						
19.238		-121.3		-0.666		3.9		0.0015		149.16		80.7						
19.336		-104.8		-0.668		5.1		0.0015		149.29		70.0						
19.434		-88.7		-0.655		5.1		-0.0001		149.07		58.1						
19.531		-72.6		-0.655		2.6		-0.0031		148.34		47.6						
19.629		-52.2		-0.647		0.0		0.0015		148.76		33.7						
19.727		-30.0		-0.649		2.6		-0.0001		148.80		19.5						
19.824		-16.1		-0.645		-1.2		0.0015		148.63		10.4						
19.922		6.5		-0.634		1.3		0.0015		148.89		-4.1						
20.020		24.3		-0.619		-2.5		-0.0016		148.04		-15.1						
20.117		44.8		-0.615		-2.5		-0.0001		148.26		-27.6						
20.215		68.7		-0.601		1.3		0.0030		149.12		-41.3						
20.313		84.3		-0.588		2.6		0.0015		149.03		-49.6						
20.410		105.7		-0.577		-1.2		-0.0031		147.94		-61.0						
20.508		121.7		-0.582		-2.5		-0.0001		148.26		-70.8						
20.605		138.7		-0.565		0.0		0.0015		148.76		-78.3						
20.703		157.4		-0.559		-1.2		-0.0001		148.40		-87.9						
20.801		174.3		-0.544		0.0		-0.0001		148.53		-94.8						
20.898		188.3		-0.548		-1.2		0.0015		148.63		-103.2						
20.996		202.2		-0.523		-1.2		-0.0001		148.40		-105.7						
21.094		219.6		-0.514		0.0		-0.0001		148.53		-113.0						
21.191		232.2		-0.502		-1.2		-0.0016		148.17		-116.5						
21.289		247.8		-0.506		-1.2		-0.0001		148.40		-125.4						
21.387		262.2		-0.487		2.6		0.0015		149.03		-127.7						
21.484		276.5		-0.464		1.3		-0.0016		148.44		-128.3						
21.582		287.0		-0.464		-3.8		-0.0031		147.68		-133.2						
21.680		300.9		-0.447		-2.5		-0.0001		148.26		-134.6						
21.777		312.6		-0.449		-1.2		-0.0016		148.17		-140.5						
21.875		324.8		-0.426		-2.5		0.0015		148.49		-138.4						
21.973		333.0		-0.416		-1.2		0.0015		148.63		-138.5						
22.070		347.8		-0.409		-2.5		-0.0016		148.04		-142.4						
22.168		359.1		-0.395		-2.5		-0.0016		148.04		-141.8						
22.266		370.0		-0.391		-2.5		-0.0001		148.26		-144.5						
22.363		378.3		-0.355		2.6		0.0015		149.03		-134.2						
22.461		387.0		-0.330		-3.8		-0.0062		147.22		-127.6						
22.559		398.3		-0.338		-1.2		-0.0001		148.40		-134.6						
22.656		409.1		-0.307		-1.2		0.0015		148.63		-125.4						
22.754		420.4		-0.300		-1.2		-0.0016		148.17		-126.2						
22.852		427.4		-0.288		-3.8		-0.0016		147.90		-122.9						
22.949		442.6		-0.256		-1.2		-0.0001		148.40		-113.4						
23.047		450.0		-0.244		-1.2		-0.0001		148.40		-109.6						
23.145		461.3		-0.231		-1.2		-0.0016		148.17		-106.5						
23.242		471.7		-0.218		-2.5		-0.0001		148.26		-103.0						
23.340		479.1		-0.197		-2.5		0.0015		148.49		-94.6						
23.438		490.9		-0.170		0.0		0.0015		148.76		-83.5						
23.535		499.1		-0.164		-1.2		-0.0016		148.17		-81.7						
23.633		513.0		-0.149		-3.8		-0.0031		147.68		-76.5						
23.730		520.0		-0.128		-2.5		0.0030		148.72		-66.6						
23.828		528.3		-0.090		-2.5		-0.0031		147.81		-47.7						
23.926		539.1		-0.065		-1.2		0.0015		148.63		-35.1						
24.023		542.2		-0.046		-1.2		-0.0001		148.40		-25.0						
24.121		548.3		-0.027		-2.5		-0.0047		147.58		-15.0						
24.219		548.7		-0.006		-3.8		0.0030		148.58		-3.5						
24.316		555.7		0.019		-1.2		0.0061		149.31		10.5						
24.414		560.0		0.038		1.3		0.0061		149.58		21.2						
24.512		554.8		0.061		-2.5		-0.0031		147.81		33.8						
24.609		556.5		0.084		-3.8		0.0045		148.81		46.7						
24.707		559.1		0.111		-1.2		0.0045		149.08		62.2						
24.805		560.0		0.130		-1.2		0.0030		148.85		72.9						
24.902		559.6		0.155		-2.5		0.0015		148.49		86.9						
25.000		556.5		0.160		-1.2		0.0045		149.08		88.8						
25.098		555.7		0.199		-1.2		0.0030		148.85		110.8						
25.195		550.4		0.218		0.0		0.0030		148.99		120.2						
25.293		548.7		0.235		-2.5		0.0030		148.72		129.0						
25.391		542.2		0.254		-2.5		0.0045		148.95		137.7						
25.488		539.6		0.258		0.0		0.0061		149.44		139.4						
25.586		537.0		0.292		0.0		0.0030		148.99		156.7						
25.684		534.3		0.311		-3.8		-0.0001		148.13		166.1						
25.781		526.1		0.328		-1.2		0.0076		149.54		172.3						
25.879		517.4		0.340		0.0		0.0030		148.99		176.0						
25.977		510.4		0.357		-1.2		0.0061		149.31		182.2						
26.074		497.4		0.384		0.0		0.0045		149.21		191.1						
26.172		493.5		0.391		0.0		0.0030		148.99		192.7						
26.270		484.8		0.391		-3.8		0.0045		148.81		189.3						
26.367		476.5		0.416		0.0		0.0061		149.44		198.1						
26.465		470.4		0.422		1.3		0.0045		149.35		198.5						
26.563		459.1		0.430		-5.1		-0.0016		147.77		197.6						
26.660		451.7		0.447		-5.1		0.0045		148.68		202.0						
26.758		440.0		0.454		-3.8		0.0045		148.81		199.6						
26.855		429.1		0.458		-2.5		0.0030		148.72		196.4						
26.953		418.7		0.479		-3.8		0.0030		148.58		200.4						
27.051		409.1		0.491		-3.8		0.0030		148.58		201.0						
27.148		399.6		0.504		-2.5		0.0045		148.95		201.4						
27.246		392.2		0.510		-2.5		0.0045		148.95		200.1						
27.344		381.3		0.523		-5.1		0.0030		148.45		199.4						
27.441		375.7		0.542		-5.1		0.0030		148.45		203.5						
27.539		363.5		0.540		-2.5		0.0061		149.17		196.1						
27.637		353.0		0.561		-2.5		-0.0001		148.26		197.9						
27.734		340.4		0.586		-6.3		-0.0016		147.64		199.4						
27.832		330.4		0.592		-6.3		0.0045		148.54		195.7						
27.930		315.7		0.590		-1.2		-0.0062		147.49		186.2						
28.027		305.2		0.615		-2.5		0.0045		148.95		187.8						
28.125		292.6		0.632		-1.2		0.0030		148.85		184.9						
28.223		278.3		0.617		-2.5		0.0015		148.49		171.8						
28.320		260.4		0.655		-5.1		0.0015		148.22		170.6						
28.418		243.0		0.647		-3.8		0.0045		148.81		157.2						
28.516		229.6		0.655		-1.2		0.0030		148.85		150.4						
28.613		215.7		0.661		-5.1		-0.0016		147.77		142.6						
28.711		199.1		0.651		-7.6		0.0030		148.18		129.6						
28.809		177.4		0.661		-3.8		0.0030		148.58		117.3						
28.906		163.9		0.661		-2.5		0.0015		148.49		108.4						
29.004		148.7		0.659		-5.1		0.0015		148.22		98.0						
29.102		136.1		0.653		-3.8		0.0030		148.58		88.9						
29.199		119.6		0.674		-2.5		0.0015		148.49		80.6						
29.297		102.6		0.653		-5.1		-0.0001		148.00		67.0						
29.395		86.5		0.657		-5.1		-0.0016		147.77		56.9						
29.492		70.4		0.661		-5.1		0.0030		148.45		46.6						
29.590		50.9		0.651		-2.5		0.0030		148.72		33.1						
29.688		30.9		0.657		-2.5		0.0015		148.49		20.3						
29.785		12.2		0.655		-6.3		-0.0047		147.18		8.0						
29.883		-10.9		0.615		-6.3		0.0030		148.32		-6.7						
29.980		-27.4		0.624		-5.1		-0.0001		148.00		-17.1						
30.078		-47.4		0.624		-3.8		0.0015		148.36		-29.6						
30.176		-68.3		0.605		-2.5		0.0015		148.49		-41.3						
30.273		-85.7		0.607		-5.1		-0.0016		147.77		-52.0						
30.371		-109.6		0.594		-6.3		-0.0001		147.86		-65.1						
30.469		-123.9		0.577		-5.1		0.0030		148.45		-71.6						
30.566		-139.6		0.584		-1.2		0.0045		149.08		-81.5						
30.664		-160.0		0.563		-2.5		-0.0001		148.26		-90.0						
30.762		-176.5		0.550		-7.6		0.0015		147.96		-97.1						
30.859		-191.3		0.533		-3.8		0.0015		148.36		-102.0						
30.957		-203.9		0.527		-3.8		0.0015		148.36		-107.5						
31.055		-219.1		0.512		-5.1		0.0015		148.22		-112.3						
31.152		-232.6		0.514		-5.1		-0.0001		148.00		-119.7						
31.250		-250.0		0.504		-3.8		0.0030		148.58		-126.0						
31.348		-263.5		0.483		-2.5		0.0030		148.72		-127.2						
31.445		-277.8		0.483		-3.8		-0.0001		148.13		-134.2						
31.543		-289.1		0.468		-5.1		0.0030		148.45		-135.4						
31.641		-300.9		0.454		-3.8		0.0045		148.81		-136.5						
31.738		-316.1		0.445		-3.8		-0.0001		148.13		-140.7						
31.836		-327.0		0.426		-6.3		-0.0001		147.86		-139.4						
31.934		-336.5		0.409		-7.6		0.0045		148.41		-137.8						
32.031		-347.8		0.401		-5.1		-0.0016		147.77		-139.5						
32.129		-361.7		0.384		-6.3		0.0015		148.09		-139.0						
32.227		-373.5		0.370		-3.8		0.0045		148.81		-138.0						
32.324		-380.4		0.357		-5.1		0.0015		148.22		-135.8						
32.422		-392.2		0.340		-7.6		0.0015		147.96		-133.4						
32.520		-400.4		0.332		-5.1		0.0045		148.68		-132.8						
32.617		-413.5		0.323		-3.8		0.0030		148.58		-133.7						
32.715		-421.3		0.300		-6.3		0.0015		148.09		-126.5						
32.813		-432.6		0.286		-8.9		0.0030		148.05		-123.5						
32.910		-444.3		0.248		-3.8		0.0030		148.58		-110.1						
33.008		-449.1		0.237		-5.1		0.0015		148.22		-106.6						
33.105		-464.8		0.239		-6.3		-0.0001		147.86		-111.3						
33.203		-477.0		0.202		-6.3		-0.0001		147.86		-96.1						
33.301		-483.9		0.189		-5.1		0.0030		148.45		-91.4						
33.398		-490.0		0.162		-5.1		0.0030		148.45		-79.2						
33.496		-500.9		0.139		-3.8		-0.0001		148.13		-69.4						
33.594		-509.6		0.126		-6.3		0.0015		148.09		-64.2						
33.691		-519.1		0.118		-3.8		0.0030		148.58		-61.0						
33.789		-528.7		0.080		-3.8		0.0030		148.58		-42.2						
33.887		-539.1		0.067		-6.3		-0.0016		147.64		-36.2						
33.984		-545.7		0.044		-8.9		0.0030		148.05		-24.1						
34.082		-554.8		0.017		-3.8		0.0015		148.36		-9.3						
34.180		-555.2		-0.015		-5.1		0.0030		148.45		8.2						
34.277		-558.3		-0.025		-3.8		-0.0016		147.90		14.1						
34.375		-557.0		-0.063		-5.1		-0.0031		147.54		35.1						
34.473		-560.4		-0.080		-6.3		-0.0016		147.64		44.7						
34.570		-557.8		-0.107		-6.3		-0.0016		147.64		59.7						
34.668		-557.8		-0.128		-3.8		-0.0001		148.13		71.4						
34.766		-556.1		-0.130		-5.1		-0.0016		147.77		72.4						
34.863		-556.1		-0.166		-8.9		-0.0016		147.37		92.2						
34.961		-559.1		-0.176		-5.1		-0.0016		147.77		98.6						
35.059		-554.8		-0.204		-5.1		-0.0016		147.77		113.0						
35.156		-555.7		-0.204		-6.3		-0.0016		147.64		113.2						
35.254		-553.5		-0.241		-5.1		-0.0016		147.77		133.6						
35.352		-547.8		-0.273		-5.1		-0.0016		147.77		149.5						
35.449		-543.5		-0.292		-3.8		-0.0016		147.90		158.6						
35.547		-537.0		-0.288		-6.3		-0.0047		147.18		154.5						
35.645		-532.6		-0.321		-6.3		-0.0016		147.64		171.1						
35.742		-528.7		-0.338		-3.8		0.0015		148.36		178.7						
35.840		-518.3		-0.349		-2.5		-0.0001		148.26		180.6						
35.938		-513.0		-0.361		-6.3		-0.0047		147.18		185.3						
36.035		-498.3		-0.380		-8.9		-0.0001		147.60		189.4						
36.133		-493.0		-0.403		-2.5		-0.0001		148.26		198.8						
36.230		-483.9		-0.405		-3.8		-0.0001		148.13		196.1						
36.328		-478.7		-0.414		-5.1		-0.0001		148.00		198.0						
36.426		-470.0		-0.430		-5.1		-0.0016		147.77		202.3						
36.523		-460.4		-0.437		-6.3		-0.0016		147.64		201.1						
36.621		-450.0		-0.462		-2.5		0.0015		148.49		207.9						
36.719		-441.7		-0.468		0.0		0.0030		148.99		206.8						
36.816		-429.1		-0.481		-1.2		0.0015		148.63		206.3						
36.914		-420.4		-0.485		-6.3		-0.0001		147.86		203.9						
37.012		-411.3		-0.496		-2.5		-0.0001		148.26		203.8						
37.109		-402.2		-0.517		-1.2		-0.0001		148.40		207.7						
37.207		-393.5		-0.523		-2.5		-0.0016		148.04		205.7						
37.305		-382.6		-0.529		-3.8		-0.0016		147.90		202.5						
37.402		-374.8		-0.544		-1.2		0.0015		148.63		203.8						
37.500		-364.8		-0.567		-1.2		-0.0001		148.40		206.8						
37.598		-352.6		-0.582		-3.8		-0.0016		147.90		205.1						
37.695		-340.9		-0.586		-5.1		-0.0016		147.77		199.7						
37.793		-326.5		-0.607		-1.2		0.0030		148.85		198.1						
37.891		-317.4		-0.605		0.0		-0.0001		148.53		191.9						
37.988		-305.7		-0.617		-2.5		-0.0031		147.81		188.7						
38.086		-293.5		-0.634		-6.3		-0.0001		147.86		186.1						
38.184		-277.0		-0.647		1.3		0.0045		149.35		179.1						
38.281		-262.6		-0.645		-25.5		-0.0001		145.86		169.3						
38.379		-244.3		-0.657		-2.5		0.0015		148.49		160.6						
38.477		-227.8		-0.651		-1.2		-0.0031		147.94		148.3						
38.574		-213.9		-0.668		-3.8		-0.0016		147.90		142.8						
38.672		-197.4		-0.659		-3.8		-0.0001		148.13		130.1						
38.770		-178.7		-0.668		-1.2		-0.0001		148.40		119.3						
38.867		-167.0		-0.672		0.0		-0.0001		148.53		112.2						
38.965		-148.3		-0.672		-6.3		-0.0001		147.86		99.6						
39.063		-133.5		-0.661		-3.8		-0.0016		147.90		88.3						
39.160		-119.1		-0.666		-2.5		-0.0001		148.26		79.3						
39.258		-104.3		-0.657		-3.8		-0.0016		147.90		68.6						
39.355		-89.1		-0.661		-2.5		-0.0016		148.04		59.0						
39.453		-71.3		-0.666		-3.8		-0.0016		147.90		47.5						
39.551		-51.3		-0.664		-1.2		-0.0001		148.40		34.0						
39.648		-28.7		-0.649		-3.8		-0.0016		147.90		18.6						
39.746		-11.3		-0.645		-3.8		-0.0016		147.90		7.3						
39.844		7.4		-0.640		-2.5		-0.0001		148.26		-4.7						
39.941		27.8		-0.638		-1.2		-0.0016		148.17		-17.8						
40.039		47.4		-0.613		-2.5		-0.0047		147.58		-29.1						
40.137		66.5		-0.594		-6.3		-0.0016		147.64		-39.5						
40.234		87.4		-0.592		0.0		0.0045		149.21		-51.7						
40.332		108.3		-0.577		-6.3		-0.0016		147.64		-62.5						
40.430		122.2		-0.584		-1.2		-0.0001		148.40		-71.3						
40.527		142.2		-0.563		-2.5		-0.0031		147.81		-80.0						
40.625		159.6		-0.569		-5.1		-0.0031		147.54		-90.8						
40.723		172.2		-0.559		-3.8		0.0015		148.36		-96.2						
40.820		192.6		-0.538		0.0		0.0015		148.76		-103.5						
40.918		207.4		-0.538		-2.5		-0.0001		148.26		-111.5						
41.016		221.3		-0.529		-5.1		-0.0016		147.77		-117.1						
41.113		233.0		-0.508		-2.5		-0.0001		148.26		-118.4						
41.211		248.3		-0.504		-2.5		-0.0016		148.04		-125.1						
41.309		261.3		-0.491		-3.8		-0.0016		147.90		-128.4						
41.406		274.8		-0.472		-3.8		-0.0016		147.90		-129.8						
41.504		288.3		-0.462		-2.5		-0.0001		148.26		-133.2						
41.602		299.6		-0.443		0.0		-0.0016		148.30		-132.7						
41.699		313.0		-0.439		-1.2		-0.0031		147.94		-137.4						
41.797		324.8		-0.422		-1.2		-0.0016		148.17		-137.1						
41.895		335.2		-0.407		0.0		-0.0001		148.53		-136.6						
41.992		347.8		-0.393		1.3		-0.0016		148.44		-136.6						
42.090		358.7		-0.401		0.0		-0.0047		147.85		-143.9						
42.188		368.7		-0.361		-3.8		-0.0031		147.68		-133.2						
42.285		378.7		-0.355		2.6		0.0045		149.48		-134.4						
42.383		389.6		-0.334		5.1		-0.0016		148.84		-130.1						
42.480		402.2		-0.307		0.0		-0.0016		148.30		-123.3						
42.578		412.2		-0.302		-1.2		-0.0047		147.71		-124.6						
42.676		422.2		-0.292		-2.5		-0.0047		147.58		-123.2						
42.773		433.9		-0.279		-1.2		-0.0016		148.17		-121.2						
42.871		440.0		-0.258		2.6		-0.0016		148.57		-113.6						
42.969		448.3		-0.227		1.3		-0.0031		148.21		-101.7						
43.066		462.6		-0.235		-2.5		-0.0031		147.81		-108.8						
43.164		472.6		-0.214		0.0		-0.0031		148.08		-101.2						
43.262		482.2		-0.193		0.0		-0.0031		148.08		-93.1						
43.359		492.2		-0.166		-1.2		-0.0047		147.71		-81.6						
43.457		500.4		-0.145		-1.2		-0.0047		147.71		-72.5						
43.555		508.7		-0.134		0.0		-0.0031		148.08		-68.4						
43.652		519.6		-0.099		-1.2		-0.0047		147.71		-51.3						
43.750		527.8		-0.090		0.0		-0.0031		148.08		-47.7						
43.848		537.8		-0.063		-1.2		-0.0047		147.71		-33.9						
43.945		542.2		-0.036		-1.2		-0.0001		148.40		-19.4						
44.043		550.0		-0.017		0.0		-0.0001		148.53		-9.2						
44.141		559.6		0.008		0.0		-0.0016		148.30		4.7						
44.238		557.0		0.031		-5.1		-0.0001		148.00		17.5						
44.336		557.0		0.052		1.3		0.0091		150.03		29.2						
44.434		556.1		0.069		-1.2		0.0015		148.63		38.5						
44.531		559.6		0.103		0.0		0.0015		148.76		57.6						
44.629		553.9		0.115		-1.2		-0.0001		148.40		64.0						
44.727		557.4		0.139		-1.2		-0.0001		148.40		77.2						
44.824		555.2		0.160		-1.2		-0.0001		148.40		88.6						
44.922		555.7		0.187		1.3		0.0045		149.35		103.8						
45.020		554.3		0.204		1.3		0.0015		148.89		112.9						
45.117		552.2		0.235		-1.2		0.0015		148.63		129.9						
45.215		548.3		0.244		1.3		0.0030		149.12		133.5						
45.313		544.8		0.239		0.0		0.0015		148.76		130.4						
45.410		541.3		0.273		0.0		0.0030		148.99		147.8						
45.508		534.8		0.290		-1.2		0.0015		148.63		155.0						
45.605		531.3		0.313		0.0		-0.0001		148.53		166.2						
45.703		522.6		0.330		1.3		0.0015		148.89		172.3						
45.801		521.7		0.346		0.0		-0.0016		148.30		180.8						
45.898		510.0		0.374		0.0		-0.0001		148.53		190.6						
45.996		500.4		0.380		1.3		0.0030		149.12		190.2						
46.094		490.9		0.403		2.6		0.0015		149.03		197.9						
46.191		487.0		0.409		0.0		-0.0031		148.08		199.4						
46.289		477.0		0.422		-3.8		0.0015		148.36		201.3						
46.387		467.4		0.430		2.6		0.0091		150.17		201.2						
46.484		460.4		0.441		1.3		-0.0001		148.66		203.0						
46.582		450.9		0.443		2.6		0.0030		149.25		199.8						
46.680		440.9		0.462		2.6		-0.0016		148.57		203.7						
46.777		431.7		0.462		0.0		-0.0016		148.30		199.4						
46.875		417.4		0.493		0.0		0.0015		148.76		206.0						
46.973		406.1		0.496		3.9		0.0030		149.39		201.2						
47.070		400.9		0.506		3.9		0.0015		149.16		202.9						
47.168		388.3		0.521		1.3		-0.0001		148.66		202.2						
47.266		381.3		0.521		1.3		0.0015		148.89		198.6						
47.363		371.3		0.561		2.6		-0.0001		148.80		208.2						
47.461		360.4		0.550		1.3		-0.0001		148.66		198.3						
47.559		352.6		0.565		1.3		-0.0001		148.66		199.2						
47.656		337.0		0.577		0.0		0.0015		148.76		194.6						
47.754		327.8		0.594		2.6		0.0015		149.03		194.8						
47.852		314.8		0.617		1.3		-0.0001		148.66		194.3						
47.949		304.3		0.626		1.3		0.0015		148.89		190.4						
48.047		288.7		0.632		0.0		0.0015		148.76		182.5						
48.145		273.9		0.647		3.9		0.0015		149.16		177.1						
48.242		260.0		0.645		1.3		-0.0031		148.21		167.6						
48.340		244.3		0.666		-2.5		-0.0001		148.26		162.6						
48.438		230.0		0.659		2.6		0.0045		149.48		151.6						
48.535		210.9		0.657		3.9		0.0015		149.16		138.6						
48.633		195.2		0.664		1.3		0.0015		148.89		129.5						
48.730		177.0		0.657		2.6		-0.0001		148.80		116.3						
48.828		163.5		0.668		0.0		-0.0001		148.53		109.2						
48.926		147.0		0.678		0.0		-0.0001		148.53		99.7						
49.023		130.9		0.672		2.6		0.0030		149.25		87.9						
49.121		117.4		0.674		1.3		-0.0016		148.44		79.1						
49.219		101.7		0.664		2.6		0.0030		149.25		67.5						
49.316		85.2		0.664		1.3		0.0015		148.89		56.5						
49.414		66.1		0.659		1.3		-0.0016		148.44		43.6						
49.512		48.3		0.640		1.3		-0.0001		148.66		30.9						
49.609		30.0		0.649		0.0		-0.0001		148.53		19.5						
49.707		8.3		0.649		0.0		-0.0001		148.53		5.4						
49.805		-8.7		0.617		2.6		-0.0001		148.80		-5.4						
49.902		-28.3		0.622		2.6		-0.0001		148.80		-17.6						
